cv ci bv bi
-0.005 9.80 0.000 0.0
-0.003 129.87 0.000 0.0
0.001 254.87 0.000 0.0
0.003 348.50 0.000 0.0
0.003 477.78 0.000 0.0
0.000 586.47 0.000 0.0
0.002 714.38 0.000 0.0
0.010 817.00 0.000 0.0
0.011 943.54 0.000 0.0
0.013 1059.66 0.000 0.0
0.013 1186.84 0.000 0.0
0.013 1283.84 0.000 0.0
0.018 1417.36 0.000 0.0
0.020 1519.35 0.000 0.0
0.022 1643.72 0.000 0.0
0.021 1755.27 0.000 0.0
0.023 1879.17 0.000 0.0
0.024 1984.37 0.000 0.0
0.026 2110.34 0.000 0.0
0.027 2207.00 0.000 0.0
0.029 2345.44 0.000 0.0
0.033 2449.26 0.000 0.0
0.034 2575.75 0.000 0.0
0.034 2683.97 0.000 0.0
0.037 2798.38 0.000 0.0
0.037 2921.14 0.000 0.0
0.041 3038.41 0.000 0.0
0.043 3159.12 0.000 0.0
0.044 3262.36 0.000 0.0
0.045 3383.46 0.000 0.0
0.047 3495.01 0.000 0.0
0.047 3620.69 0.000 0.0
0.051 3743.75 0.000 0.0
0.052 3863.53 0.000 0.0
0.054 3979.09 0.000 0.0
0.055 4089.08 0.000 0.0
0.055 4205.78 0.000 0.0
0.057 4339.30 0.000 0.0
0.059 4434.88 0.000 0.0
0.062 4567.66 0.000 0.0
0.062 4683.04 0.000 0.0
0.066 4799.90 0.000 0.0
0.067 4912.02 0.000 0.0
0.067 5035.93 0.000 0.0
0.069 5127.68 0.000 0.0
0.071 5251.92 0.000 0.0
0.071 5366.21 0.000 0.0
0.075 5487.39 0.000 0.0
0.076 5620.11 0.000 0.0
0.076 5720.48 0.000 0.0
0.080 5850.68 0.000 0.0
0.081 5946.62 0.000 0.0
0.083 6073.39 0.000 0.0
0.084 6197.00 0.000 0.0
0.086 6318.15 0.000 0.0
0.088 6423.88 0.000 0.0
0.089 6539.32 0.000 0.0
0.091 6646.66 0.000 0.0
0.093 6771.26 0.000 0.0
0.095 6890.61 0.000 0.0
0.095 7016.87 0.000 0.0
0.097 7112.82 0.000 0.0
0.101 7246.69 0.000 0.0
0.102 7356.70 0.000 0.0
0.104 7480.56 0.000 0.0
0.106 7582.71 0.000 0.0
0.108 7696.58 0.000 0.0
0.108 7820.00 0.000 0.0
0.111 7947.41 0.000 0.0
0.114 8050.24 0.000 0.0
0.115 8177.91 0.000 0.0
0.116 8274.44 0.000 0.0
0.118 8396.73 0.000 0.0
0.118 8534.43 0.000 0.0
0.120 8642.87 0.000 0.0
0.123 8750.42 0.000 0.0
0.126 8869.13 0.000 0.0
0.127 8996.98 0.000 0.0
0.128 9087.61 0.000 0.0
0.128 9226.07 0.000 0.0
0.129 9320.45 0.000 0.0
0.133 9443.79 0.000 0.0
0.133 9564.59 0.000 0.0
0.136 9677.02 0.000 0.0
0.136 9783.75 0.000 0.0
0.140 9915.90 0.000 0.0
0.139 10026.98 0.000 0.0
0.143 10135.61 0.000 0.0
0.143 10255.58 0.000 0.0
0.144 10378.27 0.000 0.0
0.147 10484.78 0.000 0.0
0.149 10598.29 0.000 0.0
0.149 10706.55 0.000 0.0
0.150 10845.18 0.000 0.0
0.154 10938.91 0.000 0.0
0.154 11075.25 0.000 0.0
0.155 11185.02 0.000 0.0
0.157 11307.04 0.000 0.0
0.160 11426.94 0.000 0.0
0.163 11540.20 0.000 0.0
0.169 11645.98 0.000 0.0
0.220 11660.45 0.000 0.0
0.220 11795.79 0.000 0.0
0.225 11900.37 0.000 0.0
0.227 12022.67 0.000 0.0
0.229 12116.70 0.000 0.0
0.229 12247.19 0.000 0.0
0.234 12352.44 0.000 0.0
0.237 12478.19 0.000 0.0
0.240 12590.19 0.000 0.0
0.240 12718.44 0.000 0.0
0.241 12824.91 0.000 0.0
0.245 12950.17 0.000 0.0
0.245 13046.56 0.000 0.0
0.248 13183.44 0.000 0.0
0.251 13276.87 0.000 0.0
0.254 13413.24 0.000 0.0
0.256 13506.87 0.000 0.0
0.256 13643.21 0.000 0.0
0.258 13759.38 0.000 0.0
0.262 13860.12 0.000 0.0
0.265 13987.16 0.000 0.0
0.266 14101.29 0.000 0.0
0.267 14217.08 0.000 0.0
0.271 14315.63 0.000 0.0
0.271 14437.58 0.000 0.0
0.273 14559.82 0.000 0.0
0.277 14677.34 0.000 0.0
0.277 14785.33 0.000 0.0
0.279 14899.28 0.000 0.0
0.281 15010.68 0.000 0.0
0.287 15133.60 0.000 0.0
0.287 15248.91 0.000 0.0
0.292 15363.20 0.000 0.0
0.359 15342.83 0.000 0.0
0.957 14269.49 0.000 0.0
1.871 12562.48 0.000 0.0
2.447 11530.08 0.000 0.0
2.795 10952.54 0.000 0.0
3.023 10620.65 0.000 0.0
3.161 10449.70 0.000 0.0
3.249 10402.31 0.000 0.0
3.329 10364.71 0.000 0.0
3.398 10352.01 0.000 0.0
3.437 10402.77 0.000 0.0
3.511 10353.84 0.000 0.0
3.566 10368.14 0.000 0.0
3.599 10428.46 0.000 0.0
3.679 10380.22 0.000 0.0
3.695 10469.90 0.000 0.0
3.748 10484.84 0.000 0.0
3.838 10439.74 0.000 0.0
3.890 10462.92 0.000 0.0
3.887 10562.45 0.000 0.0
3.954 10563.02 0.000 0.0
4.033 10512.60 0.000 0.0
4.068 10565.08 0.000 0.0
4.103 10609.66 0.000 0.0
4.148 10661.23 0.000 0.0
4.228 10598.67 0.000 0.0
4.290 10606.28 0.000 0.0
4.325 10648.35 0.000 0.0
4.391 10647.50 0.000 0.0
4.432 10684.12 0.000 0.0
4.480 10705.99 0.000 0.0
4.546 10679.55 0.000 0.0
4.577 10742.85 0.000 0.0
4.626 10788.05 0.000 0.0
4.670 10807.35 0.000 0.0
4.715 10846.67 0.000 0.0
4.765 10851.98 0.000 0.0
4.818 10866.13 0.000 0.0
4.869 10881.69 0.000 0.0
4.915 10909.00 0.000 0.0
4.969 10908.65 0.000 0.0
5.010 10962.45 0.000 0.0
5.075 10950.14 0.000 0.0
5.123 10975.38 0.000 0.0
5.158 11010.81 0.000 0.0
5.196 11059.74 0.000 0.0
5.228 11117.43 0.000 0.0
5.282 11129.51 0.000 0.0
5.337 11143.41 0.000 0.0
5.389 11161.73 0.000 0.0
5.446 11151.94 0.000 0.0
5.467 11247.00 0.000 0.0
5.523 11252.04 0.000 0.0
5.554 11314.13 0.000 0.0
5.620 11279.34 0.000 0.0
5.661 11337.94 0.000 0.0
5.721 11331.59 0.000 0.0
5.760 11363.52 0.000 0.0
5.812 11399.07 0.000 0.0
5.850 11439.48 0.000 0.0
5.908 11450.06 0.000 0.0
5.946 11486.81 0.000 0.0
5.992 11513.88 0.000 0.0
6.018 11591.25 0.000 0.0
6.067 11617.46 0.000 0.0
6.101 11647.51 0.000 0.0
6.145 11696.96 0.000 0.0
6.202 11686.83 0.000 0.0
6.229 11773.71 0.000 0.0
6.284 11760.20 0.000 0.0
6.320 11830.43 0.000 0.0
6.360 11861.85 0.000 0.0
6.400 11887.20 0.000 0.0
6.447 11925.66 0.000 0.0
6.473 11983.70 0.000 0.0
6.517 12011.05 0.000 0.0
6.566 12052.20 0.000 0.0
6.621 12057.47 0.000 0.0
6.629 12159.68 0.000 0.0
6.691 12158.54 0.000 0.0
6.714 12243.08 0.000 0.0
6.761 12264.37 0.000 0.0
6.821 12267.62 0.000 0.0
6.848 12311.81 0.000 0.0
6.922 12285.03 0.000 0.0
6.922 12402.35 0.000 0.0
6.951 12439.15 0.000 0.0
7.005 12459.64 0.000 0.0
7.031 12493.24 0.000 0.0
7.063 12519.91 0.000 0.0
7.097 12525.97 0.000 0.0
7.146 12498.96 0.000 0.0
7.151 12522.94 0.000 0.0
7.158 12519.11 0.000 0.0
7.165 12521.05 0.000 0.0
7.186 12471.14 0.000 0.0
7.191 12486.99 0.000 0.0
7.217 12443.04 0.000 0.0
7.218 12434.63 0.000 0.0
7.208 12440.64 0.000 0.0
7.194 12459.24 0.000 0.0
7.208 12434.91 0.000 0.0
7.221 12421.35 0.000 0.0
7.227 12400.12 0.000 0.0
7.204 12418.72 0.000 0.0
7.216 12432.74 0.000 0.0
7.229 12401.55 0.000 0.0
7.225 12397.48 0.000 0.0
7.218 12381.40 0.000 0.0
7.221 12409.10 0.000 0.0
7.190 12439.66 0.000 0.0
7.231 12401.78 0.000 0.0
7.230 12394.63 0.000 0.0
7.245 12381.23 0.000 0.0
7.233 12395.26 0.000 0.0
7.219 12407.96 0.000 0.0
7.218 12389.07 0.000 0.0
7.237 12399.55 0.000 0.0
7.247 12391.13 0.000 0.0
7.201 12434.74 0.000 0.0
7.232 12386.26 0.000 0.0
7.228 12409.39 0.000 0.0
winding resistance
Slope=  14.48ohms
